File: DTA file processing/Sample dta file.DTA
EXPLAIN
TAG	CV
TITLE	LABEL	Cyclic Voltammetry	Test &Identifier
DATE	LABEL	6/15/2022	Date
TIME	LABEL	22:13:34	Time
NOTES	NOTES	1	&Notes...

PSTAT	PSTAT	REF3000-35148	Potentiostat
VINIT	POTEN	5.00000E-002	F	Initial &E (V)
VLIMIT1	POTEN	1.20000E+000	F	Scan Limit &1 (V)
VLIMIT2	POTEN	5.00000E-002	F	Scan Limit &2 (V)
VFINAL	POTEN	5.00000E-002	F	Final &E (V)
SCANRATE	QUANT	4.99999E+001	&Scan Rate (mV/s)
STEPSIZE	QUANT	1.00000E+000	St&ep Size (mV)
CYCLES	IQUANT	10	C&ycles (#)
IMODE	SELECTOR	1	I/E Range &Mode
IRANGE	QUANT	3.00000E+003	&Max Current (mA)
AREA	QUANT	5.00000E+000	Electrode &Area (cm^2)
ELECTRODETYPE	SELECTOR	0	Electrode Type
STRIPPING	TOGGLE	F	Used for Stripping
POLARITY	TOGGLE	F	Signal Polarity
CONDIT	TWOPARAM	F	5.00000E+000	4.00000E-001	Conditionin&g	Time(s)	E(V)
DELAY	TWOPARAM	F	3.00000E+001	0.00000E+000	Init. De&lay	Time(s)	Stab.(mV/s)
EQDELAY	QUANT	5.00000E+000	Equil. &Time (s)
IRCOMP	SELECTOR	0	IRCom&p
PFCOR	QUANT	5.00000E+001	PF Corr. (ohm)
SAMPLINGMODE	SELECTOR	2	Sampling &Mode
EOC	QUANT	0	Open Circuit (V)
PSTATMODEL	IQUANT	5	Pstat Model
PSTATSECTION	LABEL	REF3000-35148	Pstat Section
PSTATSERIALNO	LABEL	35148	Pstat Serial Number
CTRLMODE	IQUANT	1	Control Mode
ELECTROMETER	IQUANT	0	RE=0 or CS=1
IESTAB	IQUANT	2	I/E Stability
CASPEED	IQUANT	4	Control Amp Speed
CONVENTION	IQUANT	1	Current Convention
ICHRANGE	IQUANT	2	Ich Range
ICHRANGEMODE	TOGGLE	F	Ich Auto Range
ICHOFFSETENABLE	TOGGLE	F	Ich Offset Enable
ICHOFFSET	QUANT	0	Ich Offset (V)
ICHFILTER	IQUANT	2	Ich Filter
VCHRANGE	IQUANT	2	Vch Range
VCHRANGEMODE	TOGGLE	F	Vch Auto Range
VCHOFFSETENABLE	TOGGLE	F	Vch Offset Enable
VCHOFFSET	QUANT	0	Vch Offset (V)
VCHFILTER	IQUANT	2	Vch Filter
ACHRANGE	IQUANT	2	Ach Range
ACHOFFSETENABLE	TOGGLE	F	Ach Offset Enable
ACHOFFSET	QUANT	0	Ach Offset (V)
ACHFILTER	IQUANT	1	Ach Filter
IERANGELOWERLIMIT	IQUANT	2	I/E Range Lower Limit
IERANGEMODE	TOGGLE	F	I/E AutoRange
IERANGE	IQUANT	12	I/E Range
POSFEEDENABLE	TOGGLE	F	Positive Feedback IR Comp
POSFEEDRESISTANCE	QUANT	0	Positive Feedback Resistance (ohm)
ACHSELECT	IQUANT	0	Ach Select
SENSECABLEID	IQUANT	12	Sense Cable ID
PWRCABLEID	IQUANT	12	Power Cable ID
DCCALDATE	LABEL	11/30/2021	DC Calibration Date
ACCALDATE	LABEL		AC Calibration Date
THERMOSELECT	IQUANT	1	Thermo Select
FRAMEWORKVERSION	QUANT	7.06	Framework Version
INSTRUMENTVERSION	LABEL	4.30	Instrument Version
COMPLIANCEVOLTAGE	IQUANT	0	Compliance Voltage
CURVE1	TABLE
	Pt	T	Vf	Im	Vu	Sig	Ach	IERange	Over	Temp
	#	s	V vs. Ref.	A	V	V	V	#	bits	deg C
	0	0.02	5.05766E-002	-3.05095E-001	0.00000E+000	5.00000E-002	-1.44065E-004	12	..........a	-327.63
	5	0.12	5.54369E-002	-2.11424E-001	0.00000E+000	5.50000E-002	-1.88986E-005	12	..........a	-327.63
	10	0.22	6.03785E-002	-1.51998E-001	0.00000E+000	6.00000E-002	3.52681E-005	12	..........a	-327.63
	15	0.32	6.53173E-002	-1.04492E-001	0.00000E+000	6.50000E-002	2.74347E-005	12	..........a	-327.63
	20	0.42	7.03021E-002	-6.70076E-002	0.00000E+000	7.00000E-002	1.44347E-005	12	..........a	-327.63
	25	0.52	7.52682E-002	-3.87067E-002	0.00000E+000	7.50000E-002	-2.25907E-003	12	..........a	-327.63
	30	0.62	8.02538E-002	-1.76439E-002	0.00000E+000	8.00000E-002	2.29347E-005	12	..........a	-327.63
	35	0.72	8.52239E-002	-1.45897E-003	0.00000E+000	8.50000E-002	-7.00399E-004	12	..........a	-327.63
	40	0.82	9.02191E-002	9.72184E-003	0.00000E+000	9.00000E-002	7.71014E-005	12	..........a	-327.63
	45	0.92	9.51725E-002	1.77877E-002	0.00000E+000	9.50000E-002	-5.56657E-003	12	..........a	-327.63
	50	1.02	1.00175E-001	2.34847E-002	0.00000E+000	1.00000E-001	-2.22257E-003	12	..........a	-327.63
	55	1.12	1.05139E-001	2.74464E-002	0.00000E+000	1.05000E-001	4.96014E-005	12	..........a	-327.63
	60	1.22	1.10140E-001	3.03415E-002	0.00000E+000	1.10000E-001	-2.25207E-003	12	..........a	-327.63
	65	1.32	1.15124E-001	3.25082E-002	0.00000E+000	1.15000E-001	-5.58256E-003	12	..........a	-327.63
	70	1.42	1.20138E-001	3.40389E-002	0.00000E+000	1.20000E-001	-3.08986E-005	12	..........a	-327.63
	75	1.52	1.25145E-001	3.50160E-002	0.00000E+000	1.25000E-001	-8.68399E-004	12	..........a	-327.63
	80	1.62	1.30138E-001	3.57731E-002	0.00000E+000	1.30000E-001	2.17681E-005	12	..........a	-327.63
	85	1.72	1.35109E-001	3.63224E-002	0.00000E+000	1.35000E-001	-3.07857E-003	12	..........a	-327.63
	90	1.82	1.40083E-001	3.66011E-002	0.00000E+000	1.40000E-001	4.02681E-005	12	..........a	-327.63
	95	1.92	1.45036E-001	3.67987E-002	0.00000E+000	1.45000E-001	6.39347E-005	12	..........a	-327.63
	100	2.02	1.50064E-001	3.68427E-002	0.00000E+000	1.50000E-001	4.01014E-005	12	..........a	-327.63
	105	2.12	1.55084E-001	3.68073E-002	0.00000E+000	1.55000E-001	1.96014E-005	12	..........a	-327.63
	110	2.22	1.60052E-001	3.69855E-002	0.00000E+000	1.60000E-001	-5.58807E-003	12	..........a	-327.63
	115	2.32	1.65039E-001	3.72085E-002	0.00000E+000	1.65000E-001	2.21014E-005	12	..........a	-327.63
	120	2.42	1.69998E-001	3.74082E-002	0.00000E+000	1.70000E-001	-5.55723E-003	12	..........a	-327.63
	125	2.52	1.75054E-001	3.76725E-002	0.00000E+000	1.75000E-001	3.54347E-005	12	..........a	-327.63
	130	2.62	1.80004E-001	3.80354E-002	0.00000E+000	1.80000E-001	5.94347E-005	12	..........a	-327.63
	135	2.72	1.85007E-001	3.83845E-002	0.00000E+000	1.85000E-001	-1.73907E-003	12	..........a	-327.63
	140	2.82	1.89988E-001	3.86685E-002	0.00000E+000	1.90000E-001	-5.59140E-003	12	..........a	-327.63
	145	2.92	1.94964E-001	3.90860E-002	0.00000E+000	1.95000E-001	-7.16732E-004	12	..........a	-327.63
	150	3.02	1.99991E-001	3.94510E-002	0.00000E+000	2.00000E-001	4.66014E-005	12	..........a	-327.63
	155	3.12	2.04985E-001	3.97315E-002	0.00000E+000	2.05000E-001	4.87681E-005	12	..........a	-327.63
	160	3.22	2.09969E-001	3.99268E-002	0.00000E+000	2.10000E-001	-4.16065E-004	12	..........a	-327.63
	165	3.32	2.14950E-001	4.01160E-002	0.00000E+000	2.15000E-001	1.67681E-005	12	..........a	-327.63
	170	3.42	2.19931E-001	4.01339E-002	0.00000E+000	2.20000E-001	-1.92207E-003	12	..........a	-327.63
	175	3.52	2.24957E-001	4.00006E-002	0.00000E+000	2.25000E-001	-5.59957E-003	12	..........a	-327.63
	180	3.62	2.29944E-001	3.99677E-002	0.00000E+000	2.30000E-001	4.72681E-005	12	..........a	-327.63
	185	3.72	2.34950E-001	3.99205E-002	0.00000E+000	2.35000E-001	-9.35065E-004	12	..........a	-327.63
	190	3.82	2.39931E-001	3.97976E-002	0.00000E+000	2.40000E-001	-1.89565E-004	12	..........a	-327.63
	195	3.92	2.44936E-001	3.98027E-002	0.00000E+000	2.45000E-001	-5.59173E-003	12	..........a	-327.63
	200	4.02	2.49924E-001	3.99468E-002	0.00000E+000	2.50000E-001	7.21014E-005	12	..........a	-327.63
	205	4.12	2.54912E-001	3.99977E-002	0.00000E+000	2.55000E-001	-1.11173E-003	12	..........a	-327.63
	210	4.22	2.59890E-001	4.01416E-002	0.00000E+000	2.60000E-001	5.86014E-005	12	..........a	-327.63
	215	4.32	2.64867E-001	4.02626E-002	0.00000E+000	2.65000E-001	1.74347E-005	12	..........a	-327.63
	220	4.42	2.69862E-001	4.03656E-002	0.00000E+000	2.70000E-001	-5.58907E-003	12	..........a	-327.63
	225	4.52	2.74840E-001	4.02649E-002	0.00000E+000	2.75000E-001	5.79347E-005	12	..........a	-327.63
	230	4.62	2.79879E-001	3.99981E-002	0.00000E+000	2.80000E-001	-2.76190E-003	12	..........a	-327.63
	235	4.72	2.84859E-001	3.96173E-002	0.00000E+000	2.85000E-001	3.21014E-005	12	..........a	-327.63
	240	4.82	2.89856E-001	3.90395E-002	0.00000E+000	2.90000E-001	1.17681E-005	12	..........a	-327.63
	245	4.92	2.94828E-001	3.82635E-002	0.00000E+000	2.95000E-001	-1.03232E-004	12	..........a	-327.63
	250	5.02	2.99800E-001	3.74621E-002	0.00000E+000	3.00000E-001	-5.56190E-003	12	..........a	-327.63
	255	5.12	3.04806E-001	3.65095E-002	0.00000E+000	3.05000E-001	-4.92857E-003	12	..........a	-327.63
	260	5.22	3.09791E-001	3.55060E-002	0.00000E+000	3.10000E-001	3.39347E-005	12	..........a	-327.63
	265	5.32	3.14781E-001	3.45208E-002	0.00000E+000	3.15000E-001	1.21014E-005	12	..........a	-327.63
	270	5.42	3.19771E-001	3.36373E-002	0.00000E+000	3.20000E-001	-5.59523E-003	12	..........a	-327.63
	275	5.52	3.24770E-001	3.27956E-002	0.00000E+000	3.25000E-001	5.07681E-005	12	..........a	-327.63
	280	5.62	3.29797E-001	3.21003E-002	0.00000E+000	3.30000E-001	-4.90190E-003	12	..........a	-327.63
	285	5.72	3.34792E-001	3.14802E-002	0.00000E+000	3.35000E-001	1.71014E-005	12	..........a	-327.63
	290	5.82	3.39755E-001	3.09126E-002	0.00000E+000	3.40000E-001	4.32681E-005	12	..........a	-327.63
	295	5.92	3.44733E-001	3.03618E-002	0.00000E+000	3.45000E-001	4.09347E-005	12	..........a	-327.63
	300	6.02	3.49710E-001	2.99637E-002	0.00000E+000	3.50000E-001	8.76014E-005	12	..........a	-327.63
	305	6.12	3.54712E-001	2.94957E-002	0.00000E+000	3.55000E-001	-3.98090E-003	12	..........a	-327.63
	310	6.22	3.59720E-001	2.91415E-002	0.00000E+000	3.60000E-001	1.72681E-005	12	..........a	-327.63
	315	6.32	3.64713E-001	2.89470E-002	0.00000E+000	3.65000E-001	-1.15940E-003	12	..........a	-327.63
	320	6.42	3.69696E-001	2.86323E-002	0.00000E+000	3.70000E-001	4.43474E-006	12	..........a	-327.63
	325	6.52	3.74671E-001	2.84560E-002	0.00000E+000	3.75000E-001	-5.55157E-003	12	..........a	-327.63
	330	6.62	3.79689E-001	2.81717E-002	0.00000E+000	3.80000E-001	-4.10573E-003	12	..........a	-327.63
	335	6.72	3.84646E-001	2.78969E-002	0.00000E+000	3.85000E-001	6.97681E-005	12	..........a	-327.63
	340	6.82	3.89665E-001	2.78719E-002	0.00000E+000	3.90000E-001	-1.71107E-003	12	..........a	-327.63
	345	6.92	3.94646E-001	2.75829E-002	0.00000E+000	3.95000E-001	-5.59640E-003	12	..........a	-327.63
	350	7.02	3.99602E-001	2.74467E-002	0.00000E+000	4.00000E-001	6.79347E-005	12	..........a	-327.63
	355	7.12	4.04640E-001	2.72840E-002	0.00000E+000	4.05000E-001	-5.67565E-004	12	..........a	-327.63
	360	7.22	4.09621E-001	2.71832E-002	0.00000E+000	4.10000E-001	-2.17319E-005	12	..........a	-327.63
	365	7.32	4.14619E-001	2.70780E-002	0.00000E+000	4.15000E-001	-2.44523E-003	12	..........a	-327.63
	370	7.42	4.19592E-001	2.70570E-002	0.00000E+000	4.20000E-001	-5.73986E-005	12	..........a	-327.63
	375	7.52	4.24561E-001	2.69016E-002	0.00000E+000	4.25000E-001	2.71014E-005	12	..........a	-327.63
	380	7.62	4.29589E-001	2.68082E-002	0.00000E+000	4.30000E-001	-2.65732E-004	12	..........a	-327.63
	385	7.72	4.34582E-001	2.67915E-002	0.00000E+000	4.35000E-001	2.27681E-005	12	..........a	-327.63
	390	7.82	4.39578E-001	2.67827E-002	0.00000E+000	4.40000E-001	-3.87507E-003	12	..........a	-327.63
	395	7.92	4.44571E-001	2.66751E-002	0.00000E+000	4.45000E-001	3.37681E-005	12	..........a	-327.63
	400	8.02	4.49569E-001	2.66974E-002	0.00000E+000	4.50000E-001	-5.59540E-003	12	..........a	-327.63
	405	8.12	4.54553E-001	2.66437E-002	0.00000E+000	4.55000E-001	5.91014E-005	12	..........a	-327.63
	410	8.22	4.59561E-001	2.66302E-002	0.00000E+000	4.60000E-001	3.52681E-005	12	..........a	-327.63
	415	8.32	4.64536E-001	2.67115E-002	0.00000E+000	4.65000E-001	-4.66640E-003	12	..........a	-327.63
	420	8.42	4.69519E-001	2.66013E-002	0.00000E+000	4.70000E-001	-5.58573E-003	12	..........a	-327.63
	425	8.52	4.74479E-001	2.65896E-002	0.00000E+000	4.75000E-001	-4.61232E-004	12	..........a	-327.63
	430	8.62	4.79474E-001	2.65954E-002	0.00000E+000	4.80000E-001	6.24347E-005	12	..........a	-327.63
	435	8.72	4.84498E-001	2.66414E-002	0.00000E+000	4.85000E-001	2.94347E-005	12	..........a	-327.63
	440	8.82	4.89503E-001	2.65994E-002	0.00000E+000	4.90000E-001	-2.20732E-004	12	..........a	-327.63
	445	8.92	4.94488E-001	2.65575E-002	0.00000E+000	4.95000E-001	2.61014E-005	12	..........a	-327.63
	450	9.02	4.99513E-001	2.66407E-002	0.00000E+000	5.00000E-001	-2.82440E-003	12	..........a	-327.63
	455	9.12	5.04428E-001	2.66366E-002	0.00000E+000	5.05000E-001	6.96014E-005	12	..........a	-327.63
	460	9.22	5.09448E-001	2.66499E-002	0.00000E+000	5.10000E-001	5.39347E-005	12	..........a	-327.63
	465	9.32	5.14426E-001	2.66408E-002	0.00000E+000	5.15000E-001	-9.16232E-004	12	..........a	-327.63
	470	9.42	5.19415E-001	2.66557E-002	0.00000E+000	5.20000E-001	-4.18986E-005	12	..........a	-327.63
	475	9.52	5.24392E-001	2.66951E-002	0.00000E+000	5.25000E-001	-5.60423E-003	12	..........a	-327.63
	480	9.62	5.29391E-001	2.66623E-002	0.00000E+000	5.30000E-001	-3.56526E-006	12	..........a	-327.63
	485	9.72	5.34398E-001	2.66734E-002	0.00000E+000	5.35000E-001	3.81014E-005	12	..........a	-327.63
	490	9.82	5.39429E-001	2.66545E-002	0.00000E+000	5.40000E-001	2.56014E-005	12	..........a	-327.63
	495	9.92	5.44387E-001	2.66962E-002	0.00000E+000	5.45000E-001	-5.59140E-003	12	..........a	-327.63
	500	10.02	5.49365E-001	2.66736E-002	0.00000E+000	5.50000E-001	-3.88206E-003	12	..........a	-327.63
	505	10.12	5.54326E-001	2.67140E-002	0.00000E+000	5.55000E-001	8.16014E-005	12	..........a	-327.63
	510	10.22	5.59357E-001	2.66765E-002	0.00000E+000	5.60000E-001	-7.53065E-004	12	..........a	-327.63
	515	10.32	5.64341E-001	2.66353E-002	0.00000E+000	5.65000E-001	2.89347E-005	12	..........a	-327.63
	520	10.42	5.69333E-001	2.66605E-002	0.00000E+000	5.70000E-001	3.02681E-005	12	..........a	-327.63
	525	10.52	5.74324E-001	2.67152E-002	0.00000E+000	5.75000E-001	-2.69357E-003	12	..........a	-327.63
	530	10.62	5.79294E-001	2.66786E-002	0.00000E+000	5.80000E-001	-5.55023E-003	12	..........a	-327.63
	535	10.72	5.84334E-001	2.66888E-002	0.00000E+000	5.85000E-001	-8.89565E-004	12	..........a	-327.63
	540	10.82	5.89278E-001	2.66928E-002	0.00000E+000	5.90000E-001	3.92681E-005	12	..........a	-327.63
	545	10.92	5.94299E-001	2.67078E-002	0.00000E+000	5.95000E-001	4.71014E-005	12	..........a	-327.63
	550	11.02	5.99285E-001	2.67826E-002	0.00000E+000	6.00000E-001	-5.57340E-003	12	t.........a	-327.63
	555	11.12	6.04247E-001	2.67526E-002	0.00000E+000	6.05000E-001	-6.83986E-005	12	..........a	-327.63
	560	11.22	6.09248E-001	2.67241E-002	0.00000E+000	6.10000E-001	-4.11023E-003	12	..........a	-327.63
	565	11.32	6.14271E-001	2.67200E-002	0.00000E+000	6.15000E-001	7.60140E-006	12	..........a	-327.63
	570	11.42	6.19256E-001	2.67310E-002	0.00000E+000	6.20000E-001	5.26807E-006	12	..........a	-327.63
	575	11.52	6.24246E-001	2.67124E-002	0.00000E+000	6.25000E-001	-5.23986E-005	12	..........a	-327.63
	580	11.62	6.29219E-001	2.66428E-002	0.00000E+000	6.30000E-001	1.44347E-005	12	..........a	-327.63
	585	11.72	6.34250E-001	2.66489E-002	0.00000E+000	6.35000E-001	-3.22923E-003	12	..........a	-327.63
	590	11.82	6.39218E-001	2.66470E-002	0.00000E+000	6.40000E-001	2.31014E-005	12	..........a	-327.63
	595	11.92	6.44223E-001	2.66075E-002	0.00000E+000	6.45000E-001	-1.89407E-003	12	..........a	-327.63
	600	12.02	6.49201E-001	2.65269E-002	0.00000E+000	6.50000E-001	7.76807E-006	12	..........a	-327.63
	605	12.12	6.54199E-001	2.65633E-002	0.00000E+000	6.55000E-001	-5.59907E-003	12	..........a	-327.63
	610	12.22	6.59181E-001	2.64640E-002	0.00000E+000	6.60000E-001	-1.87340E-003	12	..........a	-327.63
	615	12.32	6.64209E-001	2.64056E-002	0.00000E+000	6.65000E-001	1.27681E-005	12	..........a	-327.63
	620	12.42	6.69174E-001	2.63674E-002	0.00000E+000	6.70000E-001	-1.22207E-003	12	..........a	-327.63
	625	12.52	6.74153E-001	2.62802E-002	0.00000E+000	6.75000E-001	-5.61023E-003	12	..........a	-327.63
	630	12.62	6.79139E-001	2.62274E-002	0.00000E+000	6.80000E-001	6.69347E-005	12	..........a	-327.63
	635	12.72	6.84124E-001	2.61985E-002	0.00000E+000	6.85000E-001	-3.56732E-004	12	..........a	-327.63
	640	12.82	6.89139E-001	2.62026E-002	0.00000E+000	6.90000E-001	1.12681E-005	12	..........a	-327.63
	645	12.92	6.94121E-001	2.60921E-002	0.00000E+000	6.95000E-001	-2.77173E-003	12	..........a	-327.63
	650	13.02	6.99116E-001	2.60945E-002	0.00000E+000	7.00000E-001	-1.20653E-005	12	..........a	-327.63
	655	13.12	7.04142E-001	2.60702E-002	0.00000E+000	7.05000E-001	4.04347E-005	12	..........a	-327.63
	660	13.22	7.09057E-001	2.61161E-002	0.00000E+000	7.10000E-001	-1.10090E-003	12	..........a	-327.63
	665	13.32	7.14077E-001	2.60420E-002	0.00000E+000	7.15000E-001	5.84347E-005	12	..........a	-327.63
	670	13.42	7.19077E-001	2.60678E-002	0.00000E+000	7.20000E-001	-3.09940E-003	12	..........a	-327.63
	675	13.52	7.24063E-001	2.60997E-002	0.00000E+000	7.25000E-001	7.24347E-005	12	..........a	-327.63
	680	13.62	7.29039E-001	2.61327E-002	0.00000E+000	7.30000E-001	-5.59073E-003	12	..........a	-327.63
	685	13.72	7.34011E-001	2.61912E-002	0.00000E+000	7.35000E-001	7.66014E-005	12	..........a	-327.63
	690	13.82	7.39051E-001	2.63415E-002	0.00000E+000	7.40000E-001	4.57681E-005	12	..........a	-327.63
	695	13.92	7.44051E-001	2.64408E-002	0.00000E+000	7.45000E-001	-4.68090E-003	12	..........a	-327.63
	700	14.02	7.49042E-001	2.66070E-002	0.00000E+000	7.50000E-001	-5.58723E-003	12	..........a	-327.63
	705	14.12	7.54014E-001	2.68146E-002	0.00000E+000	7.55000E-001	-3.66940E-003	12	..........a	-327.63
	710	14.22	7.58975E-001	2.71178E-002	0.00000E+000	7.60000E-001	8.87681E-005	12	..........a	-327.63
	715	14.32	7.63999E-001	2.73619E-002	0.00000E+000	7.65000E-001	4.07681E-005	12	..........a	-327.63
	720	14.42	7.68986E-001	2.77305E-002	0.00000E+000	7.70000E-001	-1.21732E-004	12	..........a	-327.63
	725	14.52	7.73968E-001	2.80652E-002	0.00000E+000	7.75000E-001	3.86014E-005	12	..........a	-327.63
	730	14.62	7.78961E-001	2.84924E-002	0.00000E+000	7.80000E-001	-4.19423E-003	12	..........a	-327.63
	735	14.72	7.83933E-001	2.89478E-002	0.00000E+000	7.85000E-001	7.47681E-005	12	..........a	-327.63
	740	14.82	7.88969E-001	2.93261E-002	0.00000E+000	7.90000E-001	2.27681E-005	12	..........a	-327.63
	745	14.92	7.93940E-001	2.99012E-002	0.00000E+000	7.95000E-001	-3.86565E-004	12	..........a	-327.63
	750	15.02	7.98943E-001	3.05068E-002	0.00000E+000	8.00000E-001	1.97681E-005	12	..........a	-327.63
	755	15.12	8.03925E-001	3.11309E-002	0.00000E+000	8.05000E-001	-5.56573E-003	12	..........a	-327.63
	760	15.22	8.08895E-001	3.18736E-002	0.00000E+000	8.10000E-001	3.07681E-005	12	..........a	-327.63
	765	15.32	8.13889E-001	3.26536E-002	0.00000E+000	8.15000E-001	1.82681E-005	12	..........a	-327.63
	770	15.42	8.18894E-001	3.36434E-002	0.00000E+000	8.20000E-001	3.99347E-005	12	..........a	-327.63
	775	15.52	8.23920E-001	3.45652E-002	0.00000E+000	8.25000E-001	-5.59407E-003	12	..........a	-327.63
	780	15.62	8.28909E-001	3.54890E-002	0.00000E+000	8.30000E-001	-5.14973E-003	12	..........a	-327.63
	785	15.72	8.33901E-001	3.64525E-002	0.00000E+000	8.35000E-001	3.37681E-005	12	..........a	-327.63
	790	15.82	8.38931E-001	3.74118E-002	0.00000E+000	8.40000E-001	-3.29065E-004	12	..........a	-327.63
	795	15.92	8.43925E-001	3.82880E-002	0.00000E+000	8.45000E-001	2.93474E-006	12	..........a	-327.63
	800	16.02	8.48882E-001	3.92044E-002	0.00000E+000	8.50000E-001	2.57681E-005	12	..........a	-327.63
	805	16.12	8.53875E-001	3.98896E-002	0.00000E+000	8.55000E-001	-3.94007E-003	12	..........a	-327.63
	810	16.22	8.58894E-001	4.05698E-002	0.00000E+000	8.60000E-001	1.14347E-005	12	..........a	-327.63
	815	16.32	8.63874E-001	4.10277E-002	0.00000E+000	8.65000E-001	-5.65065E-004	12	..........a	-327.63
	820	16.42	8.68870E-001	4.14123E-002	0.00000E+000	8.70000E-001	-1.02319E-005	12	..........a	-327.63
	825	16.52	8.73867E-001	4.15967E-002	0.00000E+000	8.75000E-001	2.24347E-005	12	..........a	-327.63
	830	16.62	8.78820E-001	4.16415E-002	0.00000E+000	8.80000E-001	-5.61573E-003	12	..........a	-327.63
	835	16.72	8.83850E-001	4.16706E-002	0.00000E+000	8.85000E-001	4.82681E-005	12	..........a	-327.63
	840	16.82	8.88804E-001	4.16516E-002	0.00000E+000	8.90000E-001	-5.24390E-003	12	..........a	-327.63
	845	16.92	8.93812E-001	4.15966E-002	0.00000E+000	8.95000E-001	5.42681E-005	12	..........a	-327.63
	850	17.02	8.98789E-001	4.14796E-002	0.00000E+000	9.00000E-001	-5.59823E-003	12	..........a	-327.63
	855	17.12	9.03794E-001	4.14371E-002	0.00000E+000	9.05000E-001	-1.05140E-003	12	..........a	-327.63
	860	17.22	9.08781E-001	4.12619E-002	0.00000E+000	9.10000E-001	2.41014E-005	12	..........a	-327.63
	865	17.32	9.13756E-001	4.11497E-002	0.00000E+000	9.15000E-001	-4.74107E-003	12	..........a	-327.63
	870	17.42	9.18781E-001	4.10099E-002	0.00000E+000	9.20000E-001	3.21014E-005	12	..........a	-327.63
	875	17.52	9.23771E-001	4.09253E-002	0.00000E+000	9.25000E-001	-1.01207E-003	12	..........a	-327.63
	880	17.62	9.28740E-001	4.08317E-002	0.00000E+000	9.30000E-001	7.61014E-005	12	..........a	-327.63
	885	17.72	9.33705E-001	4.07318E-002	0.00000E+000	9.35000E-001	-5.58707E-003	12	..........a	-327.63
	890	17.82	9.38697E-001	4.06457E-002	0.00000E+000	9.40000E-001	-2.38973E-003	12	..........a	-327.63
	895	17.92	9.43721E-001	4.05208E-002	0.00000E+000	9.45000E-001	2.97681E-005	12	..........a	-327.63
	900	18.02	9.48744E-001	4.04916E-002	0.00000E+000	9.50000E-001	-7.55232E-004	12	..........a	-327.63
	905	18.12	9.53710E-001	4.04165E-002	0.00000E+000	9.55000E-001	-5.58057E-003	12	..........a	-327.63
	910	18.22	9.58692E-001	4.03544E-002	0.00000E+000	9.60000E-001	2.46014E-005	12	..........a	-327.63
	915	18.32	9.63661E-001	4.04308E-002	0.00000E+000	9.65000E-001	-6.32065E-004	12	..........a	-327.63
	920	18.42	9.68704E-001	4.02937E-002	0.00000E+000	9.70000E-001	-1.27565E-004	12	..........a	-327.63
	925	18.52	9.73635E-001	4.02801E-002	0.00000E+000	9.75000E-001	-5.57057E-003	12	..........a	-327.63
	930	18.62	9.78638E-001	4.03196E-002	0.00000E+000	9.80000E-001	6.93474E-006	12	..........a	-327.63
	935	18.72	9.83625E-001	4.02457E-002	0.00000E+000	9.85000E-001	2.21014E-005	12	..........a	-327.63
	940	18.82	9.88625E-001	4.03223E-002	0.00000E+000	9.90000E-001	-4.49565E-004	12	..........a	-327.63
	945	18.92	9.93635E-001	4.03191E-002	0.00000E+000	9.95000E-001	2.89347E-005	12	..........a	-327.63
	950	19.02	9.98637E-001	4.04012E-002	0.00000E+000	1.00000E+000	-5.43223E-003	12	..........a	-327.63
	955	19.12	1.00362E+000	4.04869E-002	0.00000E+000	1.00500E+000	9.26807E-006	12	..........a	-327.63
	960	19.22	1.00859E+000	4.05494E-002	0.00000E+000	1.01000E+000	-5.57990E-003	12	..........a	-327.63
	965	19.32	1.01359E+000	4.06534E-002	0.00000E+000	1.01500E+000	2.37681E-005	12	..........a	-327.63
	970	19.42	1.01857E+000	4.07841E-002	0.00000E+000	1.02000E+000	8.49347E-005	12	..........a	-327.63
	975	19.52	1.02357E+000	4.08892E-002	0.00000E+000	1.02500E+000	-4.78623E-003	12	..........a	-327.63
	980	19.62	1.02858E+000	4.10245E-002	0.00000E+000	1.03000E+000	-5.60390E-003	12	..........a	-327.63
	985	19.72	1.03355E+000	4.11803E-002	0.00000E+000	1.03500E+000	-3.53399E-004	12	..........a	-327.63
	990	19.82	1.03857E+000	4.13393E-002	0.00000E+000	1.04000E+000	4.62681E-005	12	..........a	-327.63
	995	19.92	1.04358E+000	4.14770E-002	0.00000E+000	1.04500E+000	6.87681E-005	12	..........a	-327.63
	1000	20.02	1.04858E+000	4.16439E-002	0.00000E+000	1.05000E+000	-2.57040E-003	12	..........a	-327.63
	1005	20.12	1.05355E+000	4.18273E-002	0.00000E+000	1.05500E+000	6.07681E-005	12	..........a	-327.63
	1010	20.22	1.05851E+000	4.20130E-002	0.00000E+000	1.06000E+000	-4.68065E-004	12	..........a	-327.63
	1015	20.32	1.06351E+000	4.22001E-002	0.00000E+000	1.06500E+000	4.89347E-005	12	..........a	-327.63
	1020	20.42	1.06847E+000	4.23931E-002	0.00000E+000	1.07000E+000	7.37681E-005	12	..........a	-327.63
	1025	20.52	1.07351E+000	4.26244E-002	0.00000E+000	1.07500E+000	-7.31899E-004	12	..........a	-327.63
	1030	20.62	1.07848E+000	4.28821E-002	0.00000E+000	1.08000E+000	5.76014E-005	12	..........a	-327.63
	1035	20.72	1.08348E+000	4.30773E-002	0.00000E+000	1.08500E+000	-5.59357E-003	12	..........a	-327.63
	1040	20.82	1.08844E+000	4.33179E-002	0.00000E+000	1.09000E+000	6.07681E-005	12	..........a	-327.63
	1045	20.92	1.09341E+000	4.35488E-002	0.00000E+000	1.09500E+000	4.16014E-005	12	..........a	-327.63
	1050	21.02	1.09843E+000	4.38176E-002	0.00000E+000	1.10000E+000	-1.50723E-003	12	..........a	-327.63
	1055	21.12	1.10343E+000	4.40680E-002	0.00000E+000	1.10500E+000	-5.59390E-003	12	..........a	-327.63
	1060	21.22	1.10841E+000	4.42687E-002	0.00000E+000	1.11000E+000	-5.59873E-003	12	..........a	-327.63
	1065	21.32	1.11340E+000	4.45218E-002	0.00000E+000	1.11500E+000	2.93474E-006	12	..........a	-327.63
	1070	21.42	1.11837E+000	4.47729E-002	0.00000E+000	1.12000E+000	-2.28907E-003	12	..........a	-327.63
	1075	21.52	1.12340E+000	4.50968E-002	0.00000E+000	1.12500E+000	-8.98596E-007	12	..........a	-327.63
	1080	21.62	1.12839E+000	4.53298E-002	0.00000E+000	1.13000E+000	3.14347E-005	12	..........a	-327.63
	1085	21.72	1.13337E+000	4.55893E-002	0.00000E+000	1.13500E+000	-3.83690E-003	12	..........a	-327.63
	1090	21.82	1.13835E+000	4.59060E-002	0.00000E+000	1.14000E+000	5.97681E-005	12	..........a	-327.63
	1095	21.92	1.14332E+000	4.62223E-002	0.00000E+000	1.14500E+000	-2.64899E-004	12	..........a	-327.63
	1100	22.02	1.14833E+000	4.65204E-002	0.00000E+000	1.15000E+000	-1.69899E-004	12	..........a	-327.63
	1105	22.12	1.15334E+000	4.68214E-002	0.00000E+000	1.15500E+000	2.72681E-005	12	..........a	-327.63
	1110	22.22	1.15833E+000	4.71716E-002	0.00000E+000	1.16000E+000	-5.57823E-003	12	t.........a	-327.63
	1115	22.32	1.16332E+000	4.74722E-002	0.00000E+000	1.16500E+000	5.10140E-006	12	..........a	-327.63
	1120	22.42	1.16829E+000	4.78498E-002	0.00000E+000	1.17000E+000	-5.47407E-003	12	..........a	-327.63
	1125	22.52	1.17329E+000	4.82027E-002	0.00000E+000	1.17500E+000	2.41014E-005	12	..........a	-327.63
	1130	22.62	1.17824E+000	4.85622E-002	0.00000E+000	1.18000E+000	-5.54623E-003	12	..........a	-327.63
	1135	22.72	1.18326E+000	4.89778E-002	0.00000E+000	1.18500E+000	-2.79899E-004	12	..........a	-327.63
	1140	22.82	1.18825E+000	4.93795E-002	0.00000E+000	1.19000E+000	2.66014E-005	12	..........a	-327.63
	1145	22.92	1.19321E+000	4.98452E-002	0.00000E+000	1.19500E+000	-3.20357E-003	12	..........a	-327.63
	1150	23.02	1.19825E+000	5.02563E-002	0.00000E+000	1.20000E+000	-1.22907E-003	12	..........a	-327.63
	1155	23.12	1.19327E+000	2.96595E-002	0.00000E+000	1.19500E+000	2.87681E-005	12	..........a	-327.63
	1160	23.22	1.18829E+000	2.41222E-002	0.00000E+000	1.19000E+000	3.61014E-005	12	..........a	-327.63
	1165	23.32	1.18331E+000	2.02904E-002	0.00000E+000	1.18500E+000	3.09347E-005	12	..........a	-327.63
	1170	23.42	1.17828E+000	1.73767E-002	0.00000E+000	1.18000E+000	-2.54340E-003	12	..........a	-327.63
	1175	23.52	1.17335E+000	1.50971E-002	0.00000E+000	1.17500E+000	2.26014E-005	12	..........a	-327.63
	1180	23.62	1.16835E+000	1.32205E-002	0.00000E+000	1.17000E+000	-2.54240E-003	12	..........a	-327.63
	1185	23.72	1.16337E+000	1.16699E-002	0.00000E+000	1.16500E+000	-5.60140E-003	12	..........a	-327.63
	1190	23.82	1.15839E+000	1.03371E-002	0.00000E+000	1.16000E+000	1.04347E-005	12	..........a	-327.63
	1195	23.92	1.15341E+000	9.13897E-003	0.00000E+000	1.15500E+000	-3.42357E-003	12	..........a	-327.63
	1200	24.02	1.14840E+000	8.16463E-003	0.00000E+000	1.15000E+000	4.12681E-005	12	..........a	-327.63
	1205	24.12	1.14339E+000	7.24363E-003	0.00000E+000	1.14500E+000	-5.48623E-003	12	..........a	-327.63
	1210	24.22	1.13840E+000	6.42354E-003	0.00000E+000	1.14000E+000	3.62681E-005	12	..........a	-327.63
	1215	24.32	1.13344E+000	5.64210E-003	0.00000E+000	1.13500E+000	2.67681E-005	12	..........a	-327.63
	1220	24.42	1.12846E+000	4.98011E-003	0.00000E+000	1.13000E+000	-1.04707E-003	12	..........a	-327.63
	1225	24.52	1.12350E+000	4.33915E-003	0.00000E+000	1.12500E+000	6.09347E-005	12	..........a	-327.63
	1230	24.62	1.11843E+000	3.74585E-003	0.00000E+000	1.12000E+000	-4.48090E-003	12	..........a	-327.63
	1235	24.72	1.11346E+000	3.20129E-003	0.00000E+000	1.11500E+000	1.47681E-005	12	..........a	-327.63
	1240	24.82	1.10847E+000	2.65432E-003	0.00000E+000	1.11000E+000	-5.61040E-003	12	..........a	-327.63
	1245	24.92	1.10348E+000	2.17971E-003	0.00000E+000	1.10500E+000	2.57681E-005	12	..........a	-327.63
	1250	25.02	1.09849E+000	1.70493E-003	0.00000E+000	1.10000E+000	7.51014E-005	12	..........a	-327.63
	1255	25.12	1.09349E+000	1.23634E-003	0.00000E+000	1.09500E+000	-3.99823E-003	12	..........a	-327.63
	1260	25.22	1.08850E+000	8.22913E-004	0.00000E+000	1.09000E+000	-5.57606E-003	12	..........a	-327.63
	1265	25.32	1.08352E+000	3.72512E-004	0.00000E+000	1.08500E+000	-7.38899E-004	12	..........a	-327.63
	1270	25.42	1.07852E+000	-3.43181E-005	0.00000E+000	1.08000E+000	-8.06526E-006	12	..........a	-327.63
	1275	25.52	1.07356E+000	-4.82382E-004	0.00000E+000	1.07500E+000	1.52681E-005	12	..........a	-327.63
	1280	25.62	1.06851E+000	-8.54071E-004	0.00000E+000	1.07000E+000	-5.55907E-003	12	..........a	-327.63
	1285	25.72	1.06355E+000	-1.29562E-003	0.00000E+000	1.06500E+000	3.52681E-005	12	..........a	-327.63
	1290	25.82	1.05856E+000	-1.66231E-003	0.00000E+000	1.06000E+000	-5.23899E-004	12	..........a	-327.63
	1295	25.92	1.05360E+000	-2.05202E-003	0.00000E+000	1.05500E+000	-1.70565E-004	12	..........a	-327.63
	1300	26.02	1.04861E+000	-2.46194E-003	0.00000E+000	1.05000E+000	-1.08986E-005	12	..........a	-327.63
	1305	26.12	1.04362E+000	-2.82487E-003	0.00000E+000	1.04500E+000	-1.22923E-003	12	..........a	-327.63
	1310	26.22	1.03857E+000	-3.17235E-003	0.00000E+000	1.04000E+000	4.39347E-005	12	..........a	-327.63
	1315	26.32	1.03360E+000	-3.58653E-003	0.00000E+000	1.03500E+000	-5.58307E-003	12	..........a	-327.63
	1320	26.42	1.02862E+000	-3.94745E-003	0.00000E+000	1.03000E+000	2.29347E-005	12	..........a	-327.63
	1325	26.52	1.02361E+000	-4.32548E-003	0.00000E+000	1.02500E+000	2.61014E-005	12	..........a	-327.63
	1330	26.62	1.01861E+000	-4.66011E-003	0.00000E+000	1.02000E+000	-3.28399E-004	12	..........a	-327.63
	1335	26.72	1.01362E+000	-5.12236E-003	0.00000E+000	1.01500E+000	-5.58923E-003	12	..........a	-327.63
	1340	26.82	1.00864E+000	-5.45875E-003	0.00000E+000	1.01000E+000	-5.49506E-003	12	..........a	-327.63
	1345	26.92	1.00366E+000	-5.88085E-003	0.00000E+000	1.00500E+000	2.34347E-005	12	..........a	-327.63
	1350	27.02	9.98664E-001	-6.29878E-003	0.00000E+000	1.00000E+000	-5.64899E-004	12	..........a	-327.63
	1355	27.12	9.93677E-001	-6.71847E-003	0.00000E+000	9.95000E-001	3.49347E-005	12	..........a	-327.63
	1360	27.22	9.88635E-001	-7.14199E-003	0.00000E+000	9.90000E-001	5.07681E-005	12	..........a	-327.63
	1365	27.32	9.83670E-001	-7.55166E-003	0.00000E+000	9.85000E-001	-2.64673E-003	12	..........a	-327.63
	1370	27.42	9.78680E-001	-7.97727E-003	0.00000E+000	9.80000E-001	2.07681E-005	12	..........a	-327.63
	1375	27.52	9.73681E-001	-8.40163E-003	0.00000E+000	9.75000E-001	-6.67399E-004	12	..........a	-327.63
	1380	27.62	9.68728E-001	-8.86421E-003	0.00000E+000	9.70000E-001	2.27681E-005	12	..........a	-327.63
	1385	27.72	9.63690E-001	-9.33381E-003	0.00000E+000	9.65000E-001	6.76014E-005	12	..........a	-327.63
	1390	27.82	9.58741E-001	-9.82253E-003	0.00000E+000	9.60000E-001	-5.60473E-003	12	..........a	-327.63
	1395	27.92	9.53754E-001	-1.02793E-002	0.00000E+000	9.55000E-001	-2.47319E-005	12	..........a	-327.63
	1400	28.02	9.48786E-001	-1.07995E-002	0.00000E+000	9.50000E-001	-4.50257E-003	12	..........a	-327.63
	1405	28.12	9.43748E-001	-1.12870E-002	0.00000E+000	9.45000E-001	-8.23986E-005	12	..........a	-327.63
	1410	28.22	9.38737E-001	-1.18658E-002	0.00000E+000	9.40000E-001	-5.55440E-003	12	..........a	-327.63
	1415	28.32	9.33769E-001	-1.23735E-002	0.00000E+000	9.35000E-001	-6.41065E-004	12	..........a	-327.63
	1420	28.42	9.28784E-001	-1.29629E-002	0.00000E+000	9.30000E-001	5.21014E-005	12	..........a	-327.63
	1425	28.52	9.23805E-001	-1.35680E-002	0.00000E+000	9.25000E-001	-5.25623E-003	12	..........a	-327.63
	1430	28.62	9.18831E-001	-1.41664E-002	0.00000E+000	9.20000E-001	5.62681E-005	12	..........a	-327.63
	1435	28.72	9.13806E-001	-1.47950E-002	0.00000E+000	9.15000E-001	1.01435E-004	12	..........a	-327.63
	1440	28.82	9.08833E-001	-1.54352E-002	0.00000E+000	9.10000E-001	2.44347E-005	12	..........a	-327.63
	1445	28.92	9.03849E-001	-1.61245E-002	0.00000E+000	9.05000E-001	1.81014E-005	12	..........a	-327.63
	1450	29.02	8.98840E-001	-1.67852E-002	0.00000E+000	9.00000E-001	-3.55473E-003	12	..........a	-327.63
	1455	29.12	8.93866E-001	-1.74414E-002	0.00000E+000	8.95000E-001	4.17681E-005	12	..........a	-327.63
	1460	29.22	8.88858E-001	-1.81888E-002	0.00000E+000	8.90000E-001	-9.97732E-004	12	..........a	-327.63
	1465	29.32	8.83899E-001	-1.89426E-002	0.00000E+000	8.85000E-001	-5.56890E-003	12	..........a	-327.63
	1470	29.42	8.78889E-001	-1.97179E-002	0.00000E+000	8.80000E-001	2.32681E-005	12	..........a	-327.63
	1475	29.52	8.73927E-001	-2.04537E-002	0.00000E+000	8.75000E-001	-2.43723E-003	12	..........a	-327.63
	1480	29.62	8.68931E-001	-2.12556E-002	0.00000E+000	8.70000E-001	2.17681E-005	12	..........a	-327.63
	1485	29.72	8.63907E-001	-2.21111E-002	0.00000E+000	8.65000E-001	-5.58123E-003	12	..........a	-327.63
	1490	29.82	8.58900E-001	-2.29223E-002	0.00000E+000	8.60000E-001	-6.98986E-005	12	..........a	-327.63
	1495	29.92	8.53925E-001	-2.37008E-002	0.00000E+000	8.55000E-001	5.26014E-005	12	..........a	-327.63
	1500	30.02	8.48947E-001	-2.45182E-002	0.00000E+000	8.50000E-001	-3.03232E-004	12	..........a	-327.63
	1505	30.12	8.43970E-001	-2.53436E-002	0.00000E+000	8.45000E-001	-6.67319E-005	12	..........a	-327.63
	1510	30.22	8.38958E-001	-2.62084E-002	0.00000E+000	8.40000E-001	-3.78090E-003	12	..........a	-327.63
	1515	30.32	8.33923E-001	-2.69898E-002	0.00000E+000	8.35000E-001	-5.89860E-006	12	..........a	-327.63
	1520	30.42	8.28967E-001	-2.77897E-002	0.00000E+000	8.30000E-001	2.56014E-005	12	..........a	-327.63
	1525	30.52	8.23977E-001	-2.85287E-002	0.00000E+000	8.25000E-001	1.97681E-005	12	..........a	-327.63
	1530	30.62	8.18952E-001	-2.92173E-002	0.00000E+000	8.20000E-001	4.12681E-005	12	..........a	-327.63
	1535	30.72	8.13954E-001	-2.99645E-002	0.00000E+000	8.15000E-001	-3.25490E-003	12	..........a	-327.63
	1540	30.82	8.08956E-001	-3.05867E-002	0.00000E+000	8.10000E-001	-5.59840E-003	12	..........a	-327.63
	1545	30.92	8.03988E-001	-3.11325E-002	0.00000E+000	8.05000E-001	-2.37207E-003	12	..........a	-327.63
	1550	31.02	7.99005E-001	-3.16128E-002	0.00000E+000	8.00000E-001	1.66014E-005	12	..........a	-327.63
	1555	31.12	7.93998E-001	-3.21415E-002	0.00000E+000	7.95000E-001	-1.88986E-005	12	..........a	-327.63
	1560	31.22	7.89019E-001	-3.25639E-002	0.00000E+000	7.90000E-001	-5.58890E-003	12	..........a	-327.63
	1565	31.32	7.83993E-001	-3.28366E-002	0.00000E+000	7.85000E-001	3.02681E-005	12	..........a	-327.63
	1570	31.42	7.79028E-001	-3.31005E-002	0.00000E+000	7.80000E-001	-3.37399E-004	12	..........a	-327.63
	1575	31.52	7.74028E-001	-3.32585E-002	0.00000E+000	7.75000E-001	3.89347E-005	12	..........a	-327.63
	1580	31.62	7.69049E-001	-3.34185E-002	0.00000E+000	7.70000E-001	3.17681E-005	12	..........a	-327.63
	1585	31.72	7.64071E-001	-3.34484E-002	0.00000E+000	7.65000E-001	-3.15732E-004	12	..........a	-327.63
	1590	31.82	7.59030E-001	-3.35441E-002	0.00000E+000	7.60000E-001	7.59347E-005	12	..........a	-327.63
	1595	31.92	7.54080E-001	-3.35084E-002	0.00000E+000	7.55000E-001	-4.26807E-003	12	..........a	-327.63
	1600	32.02	7.49100E-001	-3.34392E-002	0.00000E+000	7.50000E-001	6.32681E-005	12	..........a	-327.63
	1605	32.12	7.44112E-001	-3.33450E-002	0.00000E+000	7.45000E-001	1.22681E-005	12	..........a	-327.63
	1610	32.22	7.39106E-001	-3.32070E-002	0.00000E+000	7.40000E-001	-4.26399E-004	12	..........a	-327.63
	1615	32.32	7.34082E-001	-3.30286E-002	0.00000E+000	7.35000E-001	-5.55457E-003	12	..........a	-327.63
	1620	32.42	7.29105E-001	-3.28001E-002	0.00000E+000	7.30000E-001	-4.66490E-003	12	..........a	-327.63
	1625	32.52	7.24132E-001	-3.25928E-002	0.00000E+000	7.25000E-001	3.74347E-005	12	..........a	-327.63
	1630	32.62	7.19126E-001	-3.23883E-002	0.00000E+000	7.20000E-001	-3.77357E-003	12	..........a	-327.63
	1635	32.72	7.14140E-001	-3.19987E-002	0.00000E+000	7.15000E-001	-5.56673E-003	12	..........a	-327.63
	1640	32.82	7.09127E-001	-3.17097E-002	0.00000E+000	7.10000E-001	7.37681E-005	12	..........a	-327.63
	1645	32.92	7.04197E-001	-3.13665E-002	0.00000E+000	7.05000E-001	-3.47707E-003	12	..........a	-327.63
	1650	33.02	6.99182E-001	-3.09654E-002	0.00000E+000	7.00000E-001	4.26014E-005	12	..........a	-327.63
	1655	33.12	6.94183E-001	-3.06086E-002	0.00000E+000	6.95000E-001	-4.48065E-004	12	..........a	-327.63
	1660	33.22	6.89185E-001	-3.01833E-002	0.00000E+000	6.90000E-001	2.82681E-005	12	..........a	-327.63
	1665	33.32	6.84191E-001	-2.95818E-002	0.00000E+000	6.85000E-001	6.29347E-005	12	..........a	-327.63
	1670	33.42	6.79162E-001	-2.90620E-002	0.00000E+000	6.80000E-001	-5.55306E-003	12	..........a	-327.63
	1675	33.52	6.74215E-001	-2.86202E-002	0.00000E+000	6.75000E-001	1.64347E-005	12	..........a	-327.63
	1680	33.62	6.69229E-001	-2.81724E-002	0.00000E+000	6.70000E-001	-4.73223E-003	12	..........a	-327.63
	1685	33.72	6.64246E-001	-2.77103E-002	0.00000E+000	6.65000E-001	-1.82319E-005	12	..........a	-327.63
	1690	33.82	6.59242E-001	-2.72189E-002	0.00000E+000	6.60000E-001	-5.56857E-003	12	..........a	-327.63
	1695	33.92	6.54233E-001	-2.67252E-002	0.00000E+000	6.55000E-001	-1.25732E-004	12	..........a	-327.63
	1700	34.02	6.49263E-001	-2.61099E-002	0.00000E+000	6.50000E-001	-4.39860E-006	12	..........a	-327.63
	1705	34.12	6.44280E-001	-2.54478E-002	0.00000E+000	6.45000E-001	-3.85807E-003	12	..........a	-327.63
	1710	34.22	6.39288E-001	-2.48173E-002	0.00000E+000	6.40000E-001	2.22681E-005	12	..........a	-327.63
	1715	34.32	6.34309E-001	-2.40783E-002	0.00000E+000	6.35000E-001	4.49347E-005	12	..........a	-327.63
	1720	34.42	6.29293E-001	-2.32844E-002	0.00000E+000	6.30000E-001	-1.20653E-005	12	..........a	-327.63
	1725	34.52	6.24312E-001	-2.24676E-002	0.00000E+000	6.25000E-001	3.76014E-005	12	..........a	-327.63
	1730	34.62	6.19321E-001	-2.15695E-002	0.00000E+000	6.20000E-001	-3.93657E-003	12	..........a	-327.63
	1735	34.72	6.14336E-001	-2.09218E-002	0.00000E+000	6.15000E-001	2.37681E-005	12	..........a	-327.63
	1740	34.82	6.09316E-001	-2.03578E-002	0.00000E+000	6.10000E-001	-1.60340E-003	12	..........a	-327.63
	1745	34.92	6.04320E-001	-1.98135E-002	0.00000E+000	6.05000E-001	-5.59123E-003	12	..........a	-327.63
	1750	35.02	5.99344E-001	-1.92719E-002	0.00000E+000	6.00000E-001	4.60140E-006	12	..........a	-327.63
	1755	35.12	5.94365E-001	-1.86876E-002	0.00000E+000	5.95000E-001	-2.75773E-003	12	..........a	-327.63
	1760	35.22	5.89341E-001	-1.83902E-002	0.00000E+000	5.90000E-001	3.92681E-005	12	..........a	-327.63
	1765	35.32	5.84397E-001	-1.80970E-002	0.00000E+000	5.85000E-001	-5.58307E-003	12	..........a	-327.63
	1770	35.42	5.79353E-001	-1.79273E-002	0.00000E+000	5.80000E-001	6.91014E-005	12	..........a	-327.63
	1775	35.52	5.74387E-001	-1.75353E-002	0.00000E+000	5.75000E-001	2.47681E-005	12	..........a	-327.63
	1780	35.62	5.69385E-001	-1.72694E-002	0.00000E+000	5.70000E-001	-5.97065E-004	12	..........a	-327.63
	1785	35.72	5.64407E-001	-1.71262E-002	0.00000E+000	5.65000E-001	2.24347E-005	12	..........a	-327.63
	1790	35.82	5.59413E-001	-1.69330E-002	0.00000E+000	5.60000E-001	-3.71523E-003	12	..........a	-327.63
	1795	35.92	5.54387E-001	-1.67702E-002	0.00000E+000	5.55000E-001	9.01014E-005	12	..........a	-327.63
	1800	36.02	5.49426E-001	-1.67542E-002	0.00000E+000	5.50000E-001	2.26014E-005	12	..........a	-327.63
	1805	36.12	5.44448E-001	-1.66737E-002	0.00000E+000	5.45000E-001	-2.72565E-004	12	..........a	-327.63
	1810	36.22	5.39485E-001	-1.64948E-002	0.00000E+000	5.40000E-001	3.64347E-005	12	..........a	-327.63
	1815	36.32	5.34467E-001	-1.65910E-002	0.00000E+000	5.35000E-001	-3.34157E-003	12	..........a	-327.63
	1820	36.42	5.29450E-001	-1.63392E-002	0.00000E+000	5.30000E-001	-5.57707E-003	12	..........a	-327.63
	1825	36.52	5.24459E-001	-1.63253E-002	0.00000E+000	5.25000E-001	-4.57899E-004	12	..........a	-327.63
	1830	36.62	5.19476E-001	-1.61447E-002	0.00000E+000	5.20000E-001	-2.87319E-005	12	..........a	-327.63
	1835	36.72	5.14481E-001	-1.61245E-002	0.00000E+000	5.15000E-001	4.52681E-005	12	..........a	-327.63
	1840	36.82	5.09506E-001	-1.61856E-002	0.00000E+000	5.10000E-001	-5.56107E-003	12	..........a	-327.63
	1845	36.92	5.04487E-001	-1.58974E-002	0.00000E+000	5.05000E-001	6.92681E-005	12	..........a	-327.63
	1850	37.02	4.99572E-001	-1.59881E-002	0.00000E+000	5.00000E-001	-9.05565E-004	12	..........a	-327.63
	1855	37.12	4.94538E-001	-1.59100E-002	0.00000E+000	4.95000E-001	3.21014E-005	12	..........a	-327.63
	1860	37.22	4.89560E-001	-1.58278E-002	0.00000E+000	4.90000E-001	-1.12319E-005	12	..........a	-327.63
	1865	37.32	4.84557E-001	-1.58169E-002	0.00000E+000	4.85000E-001	-6.32399E-004	12	..........a	-327.63
	1870	37.42	4.79531E-001	-1.57674E-002	0.00000E+000	4.80000E-001	4.74347E-005	12	..........a	-327.63
[...]
	22051	441.04	9.97669E-001	-6.46914E-003	0.00000E+000	9.99000E-001	-3.46673E-003	12	..........a	-327.63
	22056	441.14	9.92671E-001	-6.87063E-003	0.00000E+000	9.94000E-001	4.27681E-005	12	..........a	-327.63
	22061	441.24	9.87688E-001	-7.36118E-003	0.00000E+000	9.89000E-001	-8.98596E-007	12	..........a	-327.63
	22066	441.34	9.82692E-001	-7.76517E-003	0.00000E+000	9.84000E-001	-3.46823E-003	12	..........a	-327.63
	22071	441.44	9.77703E-001	-8.19729E-003	0.00000E+000	9.79000E-001	2.14347E-005	12	..........a	-327.63
	22076	441.54	9.72729E-001	-8.69218E-003	0.00000E+000	9.74000E-001	-6.97732E-004	12	..........a	-327.63
	22081	441.64	9.67711E-001	-9.14350E-003	0.00000E+000	9.69000E-001	-5.60923E-003	12	..........a	-327.63
	22086	441.74	9.62710E-001	-9.62303E-003	0.00000E+000	9.64000E-001	2.29347E-005	12	..........a	-327.63
	22091	441.84	9.57734E-001	-1.00997E-002	0.00000E+000	9.59000E-001	-3.70565E-004	12	..........a	-327.63
	22096	441.94	9.52765E-001	-1.05889E-002	0.00000E+000	9.54000E-001	1.71014E-005	12	..........a	-327.63
	22101	442.04	9.47749E-001	-1.11546E-002	0.00000E+000	9.49000E-001	-5.58556E-003	12	..........a	-327.63
	22106	442.14	9.42809E-001	-1.16779E-002	0.00000E+000	9.44000E-001	3.31014E-005	12	..........a	-327.63
	22111	442.24	9.37745E-001	-1.22441E-002	0.00000E+000	9.39000E-001	1.19935E-004	12	..........a	-327.63
	22116	442.34	9.32777E-001	-1.27951E-002	0.00000E+000	9.34000E-001	-2.41207E-003	12	..........a	-327.63
	22121	442.44	9.27788E-001	-1.33748E-002	0.00000E+000	9.29000E-001	2.22681E-005	12	..........a	-327.63
	22126	442.54	9.22818E-001	-1.40029E-002	0.00000E+000	9.24000E-001	-4.18907E-003	12	..........a	-327.63
	22131	442.64	9.17821E-001	-1.46442E-002	0.00000E+000	9.19000E-001	1.64347E-005	12	..........a	-327.63
	22136	442.74	9.12808E-001	-1.52794E-002	0.00000E+000	9.14000E-001	7.19347E-005	12	..........a	-327.63
	22141	442.84	9.07838E-001	-1.58978E-002	0.00000E+000	9.09000E-001	2.24347E-005	12	..........a	-327.63
	22146	442.94	9.02857E-001	-1.66320E-002	0.00000E+000	9.04000E-001	2.39347E-005	12	..........a	-327.63
	22151	443.04	8.97911E-001	-1.73633E-002	0.00000E+000	8.99000E-001	-2.91057E-003	12	..........a	-327.63
	22156	443.14	8.92875E-001	-1.80620E-002	0.00000E+000	8.94000E-001	-5.59557E-003	12	..........a	-327.63
	22161	443.24	8.87877E-001	-1.88106E-002	0.00000E+000	8.89000E-001	-8.34399E-004	12	..........a	-327.63
	22166	443.34	8.82877E-001	-1.95741E-002	0.00000E+000	8.84000E-001	-1.75899E-004	12	..........a	-327.63
	22171	443.44	8.77906E-001	-2.03537E-002	0.00000E+000	8.79000E-001	1.29347E-005	12	..........a	-327.63
	22176	443.54	8.72902E-001	-2.11704E-002	0.00000E+000	8.74000E-001	-5.59290E-003	12	..........a	-327.63
	22181	443.64	8.67940E-001	-2.19134E-002	0.00000E+000	8.69000E-001	4.96014E-005	12	..........a	-327.63
	22186	443.74	8.62899E-001	-2.27680E-002	0.00000E+000	8.64000E-001	-1.08890E-003	12	..........a	-327.63
	22191	443.84	8.57986E-001	-2.36123E-002	0.00000E+000	8.59000E-001	4.49347E-005	12	..........a	-327.63
	22196	443.94	8.52950E-001	-2.44660E-002	0.00000E+000	8.54000E-001	3.37681E-005	12	..........a	-327.63
	22201	444.04	8.47975E-001	-2.52413E-002	0.00000E+000	8.49000E-001	-9.65399E-004	12	..........a	-327.63
	22206	444.14	8.42967E-001	-2.60769E-002	0.00000E+000	8.44000E-001	7.93474E-006	12	..........a	-327.63
	22211	444.24	8.37964E-001	-2.69247E-002	0.00000E+000	8.39000E-001	-4.67357E-003	12	..........a	-327.63
	22216	444.34	8.32949E-001	-2.76516E-002	0.00000E+000	8.34000E-001	6.94347E-005	12	..........a	-327.63
	22221	444.44	8.27971E-001	-2.84634E-002	0.00000E+000	8.29000E-001	3.64347E-005	12	..........a	-327.63
	22226	444.54	8.22982E-001	-2.92456E-002	0.00000E+000	8.24000E-001	-1.27065E-004	12	..........a	-327.63
	22231	444.64	8.17985E-001	-2.99134E-002	0.00000E+000	8.19000E-001	-5.59707E-003	12	..........a	-327.63
	22236	444.74	8.12971E-001	-3.06044E-002	0.00000E+000	8.14000E-001	-4.91773E-003	12	..........a	-327.63
	22241	444.84	8.07977E-001	-3.12111E-002	0.00000E+000	8.09000E-001	1.16014E-005	12	..........a	-327.63
	22246	444.94	8.02994E-001	-3.18036E-002	0.00000E+000	8.04000E-001	-2.28607E-003	12	..........a	-327.63
	22251	445.04	7.98003E-001	-3.23338E-002	0.00000E+000	7.99000E-001	-5.60490E-003	12	..........a	-327.63
	22256	445.14	7.93016E-001	-3.27554E-002	0.00000E+000	7.94000E-001	2.06014E-005	12	..........a	-327.63
	22261	445.24	7.88008E-001	-3.32136E-002	0.00000E+000	7.89000E-001	-3.75507E-003	12	..........a	-327.63
	22266	445.34	7.83002E-001	-3.35818E-002	0.00000E+000	7.84000E-001	3.57681E-005	12	..........a	-327.63
	22271	445.44	7.78036E-001	-3.38039E-002	0.00000E+000	7.79000E-001	-8.54732E-004	12	..........a	-327.63
	22276	445.54	7.73058E-001	-3.40201E-002	0.00000E+000	7.74000E-001	-1.78732E-004	12	..........a	-327.63
	22281	445.64	7.68065E-001	-3.42103E-002	0.00000E+000	7.69000E-001	2.74347E-005	12	..........a	-327.63
	22286	445.74	7.63066E-001	-3.43359E-002	0.00000E+000	7.64000E-001	-1.73423E-003	12	..........a	-327.63
	22291	445.84	7.58033E-001	-3.43823E-002	0.00000E+000	7.59000E-001	6.46014E-005	12	..........a	-327.63
	22296	445.94	7.53082E-001	-3.44036E-002	0.00000E+000	7.54000E-001	-4.03307E-003	12	..........a	-327.63
	22301	446.04	7.48100E-001	-3.44315E-002	0.00000E+000	7.49000E-001	2.74347E-005	12	..........a	-327.63
	22306	446.14	7.43074E-001	-3.43297E-002	0.00000E+000	7.44000E-001	-5.56473E-003	12	..........a	-327.63
	22311	446.24	7.38109E-001	-3.43500E-002	0.00000E+000	7.39000E-001	-2.37090E-003	12	..........a	-327.63
	22316	446.34	7.33082E-001	-3.42211E-002	0.00000E+000	7.34000E-001	5.61014E-005	12	..........a	-327.63
	22321	446.44	7.28131E-001	-3.40608E-002	0.00000E+000	7.29000E-001	-5.61023E-003	12	..........a	-327.63
	22326	446.54	7.23134E-001	-3.38753E-002	0.00000E+000	7.24000E-001	-5.59090E-003	12	..........a	-327.63
	22331	446.64	7.18136E-001	-3.36179E-002	0.00000E+000	7.19000E-001	2.57681E-005	12	..........a	-327.63
	22336	446.74	7.13145E-001	-3.33249E-002	0.00000E+000	7.14000E-001	4.51014E-005	12	..........a	-327.63
	22341	446.84	7.08144E-001	-3.28736E-002	0.00000E+000	7.09000E-001	9.24347E-005	12	..........a	-327.63
	22346	446.94	7.03173E-001	-3.25452E-002	0.00000E+000	7.04000E-001	-1.97290E-003	12	..........a	-327.63
	22351	447.04	6.98185E-001	-3.21392E-002	0.00000E+000	6.99000E-001	4.66014E-005	12	..........a	-327.63
	22356	447.14	6.93219E-001	-3.15986E-002	0.00000E+000	6.94000E-001	-7.27232E-004	12	..........a	-327.63
	22361	447.24	6.88201E-001	-3.11040E-002	0.00000E+000	6.89000E-001	-5.57606E-003	12	..........a	-327.63
	22366	447.34	6.83171E-001	-3.05568E-002	0.00000E+000	6.84000E-001	8.34347E-005	12	..........a	-327.63
	22371	447.44	6.78213E-001	-2.99022E-002	0.00000E+000	6.79000E-001	-7.76732E-004	12	..........a	-327.63
	22376	447.54	6.73220E-001	-2.93285E-002	0.00000E+000	6.74000E-001	2.41014E-005	12	..........a	-327.63
	22381	447.64	6.68223E-001	-2.86916E-002	0.00000E+000	6.69000E-001	-5.60140E-003	12	..........a	-327.63
	22386	447.74	6.63249E-001	-2.80936E-002	0.00000E+000	6.64000E-001	4.59347E-005	12	..........a	-327.63
	22391	447.84	6.58224E-001	-2.73961E-002	0.00000E+000	6.59000E-001	5.21014E-005	12	..........a	-327.63
	22396	447.94	6.53270E-001	-2.67738E-002	0.00000E+000	6.54000E-001	-7.65232E-004	12	..........a	-327.63
	22401	448.04	6.48290E-001	-2.61697E-002	0.00000E+000	6.49000E-001	3.84347E-005	12	..........a	-327.63
	22406	448.14	6.43294E-001	-2.54201E-002	0.00000E+000	6.44000E-001	-4.17423E-003	12	..........a	-327.63
	22411	448.24	6.38323E-001	-2.46227E-002	0.00000E+000	6.39000E-001	3.37681E-005	12	..........a	-327.63
	22416	448.34	6.33292E-001	-2.38672E-002	0.00000E+000	6.34000E-001	4.52681E-005	12	..........a	-327.63
	22421	448.44	6.28294E-001	-2.30832E-002	0.00000E+000	6.29000E-001	3.49347E-005	12	..........a	-327.63
	22426	448.54	6.23304E-001	-2.23429E-002	0.00000E+000	6.24000E-001	4.34736E-007	12	..........a	-327.63
	22431	448.64	6.18331E-001	-2.16690E-002	0.00000E+000	6.19000E-001	-4.82807E-003	12	..........a	-327.63
	22436	448.74	6.13342E-001	-2.10269E-002	0.00000E+000	6.14000E-001	-5.60357E-003	12	..........a	-327.63
	22441	448.84	6.08355E-001	-2.04257E-002	0.00000E+000	6.09000E-001	-3.58190E-003	12	..........a	-327.63
	22446	448.94	6.03355E-001	-1.98894E-002	0.00000E+000	6.04000E-001	2.71014E-005	12	..........a	-327.63
	22451	449.04	5.98361E-001	-1.94521E-002	0.00000E+000	5.99000E-001	2.87681E-005	12	..........a	-327.63
	22456	449.14	5.93363E-001	-1.89936E-002	0.00000E+000	5.94000E-001	-5.62573E-003	12	..........a	-327.63
	22461	449.24	5.88371E-001	-1.84905E-002	0.00000E+000	5.89000E-001	4.99347E-005	12	..........a	-327.63
	22466	449.34	5.83372E-001	-1.83679E-002	0.00000E+000	5.84000E-001	-7.89065E-004	12	..........a	-327.63
	22471	449.44	5.78389E-001	-1.81150E-002	0.00000E+000	5.79000E-001	4.26807E-006	12	..........a	-327.63
	22476	449.54	5.73378E-001	-1.78686E-002	0.00000E+000	5.74000E-001	1.27681E-005	12	..........a	-327.63
	22481	449.64	5.68411E-001	-1.76320E-002	0.00000E+000	5.69000E-001	-8.33565E-004	12	..........a	-327.63
	22486	449.74	5.63417E-001	-1.74930E-002	0.00000E+000	5.64000E-001	-5.08986E-005	12	..........a	-327.63
	22491	449.84	5.58433E-001	-1.72929E-002	0.00000E+000	5.59000E-001	-4.09940E-003	12	..........a	-327.63
	22496	449.94	5.53387E-001	-1.72661E-002	0.00000E+000	5.54000E-001	-1.00899E-004	12	..........a	-327.63
	22501	450.04	5.48430E-001	-1.70801E-002	0.00000E+000	5.49000E-001	1.17681E-005	12	..........a	-327.63
	22506	450.14	5.43444E-001	-1.70042E-002	0.00000E+000	5.44000E-001	-7.00232E-004	12	..........a	-327.63
	22511	450.24	5.38431E-001	-1.69330E-002	0.00000E+000	5.39000E-001	-5.57023E-003	12	..........a	-327.63
	22516	450.34	5.33490E-001	-1.68300E-002	0.00000E+000	5.34000E-001	-4.34657E-003	12	..........a	-327.63
	22521	450.44	5.28440E-001	-1.67649E-002	0.00000E+000	5.29000E-001	8.77681E-005	12	..........a	-327.63
	22526	450.54	5.23475E-001	-1.66396E-002	0.00000E+000	5.24000E-001	-3.31473E-003	12	..........a	-327.63
	22531	450.64	5.18486E-001	-1.66171E-002	0.00000E+000	5.19000E-001	-5.59157E-003	12	..........a	-327.63
	22536	450.74	5.13515E-001	-1.65637E-002	0.00000E+000	5.14000E-001	1.36014E-005	12	..........a	-327.63
	22541	450.84	5.08498E-001	-1.64451E-002	0.00000E+000	5.09000E-001	-4.97657E-003	12	..........a	-327.63
	22546	450.94	5.03477E-001	-1.63509E-002	0.00000E+000	5.04000E-001	6.76014E-005	12	..........a	-327.63
	22551	451.04	4.98523E-001	-1.63859E-002	0.00000E+000	4.99000E-001	-6.63732E-004	12	..........a	-327.63
	22556	451.14	4.93545E-001	-1.62372E-002	0.00000E+000	4.94000E-001	5.34347E-005	12	..........a	-327.63
	22561	451.24	4.88563E-001	-1.61941E-002	0.00000E+000	4.89000E-001	1.10140E-006	12	..........a	-327.63
	22566	451.34	4.83583E-001	-1.61272E-002	0.00000E+000	4.84000E-001	-1.24290E-003	12	..........a	-327.63
	22571	451.44	4.78557E-001	-1.60861E-002	0.00000E+000	4.79000E-001	-2.87319E-005	12	..........a	-327.63
	22576	451.54	4.73569E-001	-1.60419E-002	0.00000E+000	4.74000E-001	-4.42890E-003	12	..........a	-327.63
	22581	451.64	4.68574E-001	-1.60227E-002	0.00000E+000	4.69000E-001	-5.06526E-006	12	..........a	-327.63
	22586	451.74	4.63578E-001	-1.59923E-002	0.00000E+000	4.64000E-001	-5.58423E-003	12	..........a	-327.63
	22591	451.84	4.58601E-001	-1.59853E-002	0.00000E+000	4.59000E-001	-7.09399E-004	12	..........a	-327.63
	22596	451.94	4.53600E-001	-1.58898E-002	0.00000E+000	4.54000E-001	5.29347E-005	12	..........a	-327.63
	22601	452.04	4.48631E-001	-1.58537E-002	0.00000E+000	4.49000E-001	-5.16473E-003	12	..........a	-327.63
	22606	452.14	4.43644E-001	-1.59196E-002	0.00000E+000	4.44000E-001	-5.60557E-003	12	..........a	-327.63
	22611	452.24	4.38663E-001	-1.58333E-002	0.00000E+000	4.39000E-001	1.57681E-005	12	..........a	-327.63
	22616	452.34	4.33666E-001	-1.58808E-002	0.00000E+000	4.34000E-001	-6.39860E-006	12	..........a	-327.63
	22621	452.44	4.28672E-001	-1.58749E-002	0.00000E+000	4.29000E-001	2.93474E-006	12	..........a	-327.63
	22626	452.54	4.23625E-001	-1.58530E-002	0.00000E+000	4.24000E-001	-3.40140E-003	12	..........a	-327.63
	22631	452.64	4.18650E-001	-1.58709E-002	0.00000E+000	4.19000E-001	4.61014E-005	12	..........a	-327.63
	22636	452.74	4.13664E-001	-1.59110E-002	0.00000E+000	4.14000E-001	-2.73273E-003	12	..........a	-327.63
	22641	452.84	4.08707E-001	-1.59933E-002	0.00000E+000	4.09000E-001	-8.47319E-005	12	..........a	-327.63
	22646	452.94	4.03697E-001	-1.60051E-002	0.00000E+000	4.04000E-001	-5.05653E-005	12	..........a	-327.63
	22651	453.04	3.98745E-001	-1.61205E-002	0.00000E+000	3.99000E-001	-4.34190E-003	12	..........a	-327.63
	22656	453.14	3.93718E-001	-1.61448E-002	0.00000E+000	3.94000E-001	5.56014E-005	12	..........a	-327.63
	22661	453.24	3.88744E-001	-1.62714E-002	0.00000E+000	3.89000E-001	-5.59857E-003	12	..........a	-327.63
	22666	453.34	3.83729E-001	-1.63509E-002	0.00000E+000	3.84000E-001	2.29347E-005	12	..........a	-327.63
	22671	453.44	3.78747E-001	-1.64625E-002	0.00000E+000	3.79000E-001	-2.45653E-005	12	..........a	-327.63
	22676	453.54	3.73726E-001	-1.65849E-002	0.00000E+000	3.74000E-001	-5.89065E-004	12	..........a	-327.63
	22681	453.64	3.68753E-001	-1.67542E-002	0.00000E+000	3.69000E-001	-5.58256E-003	12	..........a	-327.63
	22686	453.74	3.63769E-001	-1.69178E-002	0.00000E+000	3.64000E-001	-4.19140E-003	12	..........a	-327.63
	22691	453.84	3.58788E-001	-1.70405E-002	0.00000E+000	3.59000E-001	2.54347E-005	12	..........a	-327.63
	22696	453.94	3.53809E-001	-1.72831E-002	0.00000E+000	3.54000E-001	2.91014E-005	12	..........a	-327.63
	22701	454.04	3.48792E-001	-1.76553E-002	0.00000E+000	3.49000E-001	-2.32232E-004	12	..........a	-327.63
	22706	454.14	3.43810E-001	-1.78776E-002	0.00000E+000	3.44000E-001	-1.27319E-005	12	..........a	-327.63
	22711	454.24	3.38829E-001	-1.81770E-002	0.00000E+000	3.39000E-001	-2.97023E-003	12	..........a	-327.63
	22716	454.34	3.33834E-001	-1.85903E-002	0.00000E+000	3.34000E-001	-5.60590E-003	12	..........a	-327.63
	22721	454.44	3.28854E-001	-1.90304E-002	0.00000E+000	3.29000E-001	-2.86257E-003	12	..........a	-327.63
	22726	454.54	3.23809E-001	-1.95833E-002	0.00000E+000	3.24000E-001	8.29347E-005	12	..........a	-327.63
	22731	454.64	3.18848E-001	-2.00335E-002	0.00000E+000	3.19000E-001	2.62681E-005	12	..........a	-327.63
	22736	454.74	3.13882E-001	-2.06833E-002	0.00000E+000	3.14000E-001	-5.58840E-003	12	..........a	-327.63
	22741	454.84	3.08889E-001	-2.14755E-002	0.00000E+000	3.09000E-001	1.39347E-005	12	..........a	-327.63
	22746	454.94	3.03900E-001	-2.21528E-002	0.00000E+000	3.04000E-001	-4.90732E-004	12	..........a	-327.63
	22751	455.04	2.98851E-001	-2.30709E-002	0.00000E+000	2.99000E-001	5.99347E-005	12	..........a	-327.63
	22756	455.14	2.93894E-001	-2.39750E-002	0.00000E+000	2.94000E-001	3.06014E-005	12	..........a	-327.63
	22761	455.24	2.88919E-001	-2.48572E-002	0.00000E+000	2.89000E-001	-8.31232E-004	12	..........a	-327.63
	22766	455.34	2.83947E-001	-2.58328E-002	0.00000E+000	2.84000E-001	-1.33986E-005	12	..........a	-327.63
	22771	455.44	2.78943E-001	-2.66903E-002	0.00000E+000	2.79000E-001	-3.93673E-003	12	..........a	-327.63
	22776	455.54	2.73957E-001	-2.76137E-002	0.00000E+000	2.74000E-001	1.57681E-005	12	..........a	-327.63
	22781	455.64	2.68977E-001	-2.86328E-002	0.00000E+000	2.69000E-001	4.43474E-006	12	..........a	-327.63
	22786	455.74	2.63965E-001	-2.95944E-002	0.00000E+000	2.64000E-001	-5.55232E-004	12	..........a	-327.63
	22791	455.84	2.58953E-001	-3.04441E-002	0.00000E+000	2.59000E-001	-5.58356E-003	12	..........a	-327.63
	22796	455.94	2.53983E-001	-3.13035E-002	0.00000E+000	2.54000E-001	-5.60756E-003	12	..........a	-327.63
	22801	456.04	2.48978E-001	-3.21105E-002	0.00000E+000	2.49000E-001	4.39347E-005	12	..........a	-327.63
	22806	456.14	2.43999E-001	-3.27694E-002	0.00000E+000	2.44000E-001	-2.44873E-003	12	..........a	-327.63
	22811	456.24	2.39015E-001	-3.32889E-002	0.00000E+000	2.39000E-001	-5.60423E-003	12	..........a	-327.63
	22816	456.34	2.34052E-001	-3.39570E-002	0.00000E+000	2.34000E-001	-5.72319E-005	12	..........a	-327.63
	22821	456.44	2.29052E-001	-3.45959E-002	0.00000E+000	2.29000E-001	-5.60990E-003	12	..........a	-327.63
	22826	456.54	2.24057E-001	-3.51205E-002	0.00000E+000	2.24000E-001	2.74347E-005	12	..........a	-327.63
	22831	456.64	2.18999E-001	-3.58619E-002	0.00000E+000	2.19000E-001	-1.56140E-003	12	..........a	-327.63
	22836	456.74	2.14037E-001	-3.65057E-002	0.00000E+000	2.14000E-001	1.11014E-005	12	..........a	-327.63
	22841	456.84	2.09049E-001	-3.69715E-002	0.00000E+000	2.09000E-001	2.37681E-005	12	..........a	-327.63
	22846	456.94	2.04068E-001	-3.75699E-002	0.00000E+000	2.04000E-001	-1.26707E-003	12	..........a	-327.63
	22851	457.04	1.99060E-001	-3.78242E-002	0.00000E+000	1.99000E-001	1.99347E-005	12	..........a	-327.63
	22856	457.14	1.94082E-001	-3.79912E-002	0.00000E+000	1.94000E-001	-3.25973E-003	12	..........a	-327.63
	22861	457.24	1.89096E-001	-3.80522E-002	0.00000E+000	1.89000E-001	4.04347E-005	12	..........a	-327.63
	22866	457.34	1.84102E-001	-3.78612E-002	0.00000E+000	1.84000E-001	-5.59723E-003	12	..........a	-327.63
	22871	457.44	1.79112E-001	-3.76559E-002	0.00000E+000	1.79000E-001	-7.04399E-004	12	..........a	-327.63
	22876	457.54	1.74100E-001	-3.74776E-002	0.00000E+000	1.74000E-001	3.31014E-005	12	..........a	-327.63
	22881	457.64	1.69082E-001	-3.73729E-002	0.00000E+000	1.69000E-001	-4.83123E-003	12	..........a	-327.63
	22886	457.74	1.64125E-001	-3.71960E-002	0.00000E+000	1.64000E-001	-5.57857E-003	12	..........a	-327.63
	22891	457.84	1.59132E-001	-3.72303E-002	0.00000E+000	1.59000E-001	1.01402E-007	12	..........a	-327.63
	22896	457.94	1.54119E-001	-3.71369E-002	0.00000E+000	1.54000E-001	6.93474E-006	12	..........a	-327.63
	22901	458.04	1.49187E-001	-3.73511E-002	0.00000E+000	1.49000E-001	2.24347E-005	12	..........a	-327.63
	22906	458.14	1.44142E-001	-3.76792E-002	0.00000E+000	1.44000E-001	-2.08890E-003	12	..........a	-327.63
	22911	458.24	1.39176E-001	-3.80141E-002	0.00000E+000	1.39000E-001	4.52681E-005	12	..........a	-327.63
	22916	458.34	1.34182E-001	-3.83072E-002	0.00000E+000	1.34000E-001	-1.81923E-003	12	..........a	-327.63
	22921	458.44	1.29216E-001	-3.87481E-002	0.00000E+000	1.29000E-001	1.44347E-005	12	..........a	-327.63
	22926	458.54	1.24204E-001	-3.92817E-002	0.00000E+000	1.24000E-001	2.49347E-005	12	..........a	-327.63
	22931	458.64	1.19167E-001	-4.00620E-002	0.00000E+000	1.19000E-001	-3.06240E-003	12	..........a	-327.63
	22936	458.74	1.14205E-001	-4.11190E-002	0.00000E+000	1.14000E-001	2.26014E-005	12	..........a	-327.63
	22941	458.84	1.09240E-001	-4.23038E-002	0.00000E+000	1.09000E-001	-5.55690E-003	12	..........a	-327.63
	22946	458.94	1.04264E-001	-4.43838E-002	0.00000E+000	1.04000E-001	-3.67319E-005	12	..........a	-327.63
	22951	459.04	9.92696E-002	-4.72191E-002	0.00000E+000	9.90000E-002	5.41014E-005	12	..........a	-327.63
	22956	459.14	9.42341E-002	-5.09422E-002	0.00000E+000	9.40000E-002	-8.71899E-004	12	..........a	-327.63
	22961	459.24	8.92882E-002	-5.66829E-002	0.00000E+000	8.90000E-002	-5.59590E-003	12	..........a	-327.63
	22966	459.34	8.43131E-002	-6.41215E-002	0.00000E+000	8.40000E-002	-5.35140E-003	12	..........a	-327.63
	22971	459.44	7.93243E-002	-7.39560E-002	0.00000E+000	7.90000E-002	1.19347E-005	12	..........a	-327.63
	22976	459.54	7.43655E-002	-9.18837E-002	0.00000E+000	7.40000E-002	5.51014E-005	12	..........a	-327.63
	22981	459.64	6.93582E-002	-1.09313E-001	0.00000E+000	6.90000E-002	-1.04399E-004	12	..........a	-327.63
	22986	459.74	6.44424E-002	-1.40428E-001	0.00000E+000	6.40000E-002	4.81014E-005	12	..........a	-327.63
	22991	459.84	5.94688E-002	-1.72119E-001	0.00000E+000	5.90000E-002	-2.51923E-003	12	..........a	-327.63
	22996	459.94	5.44950E-002	-2.21693E-001	0.00000E+000	5.40000E-002	3.57681E-005	12	..........a	-327.63
	23000	460.02	5.05472E-002	-2.57067E-001	0.00000E+000	5.00000E-002	-5.60923E-003	12	..........a	-327.63
CURVE11	TABLE
	Pt	T	Vf	Im	Vu	Sig	Ach	IERange	Over	Temp
	#	s	V vs. Ref.	A	V	V	V	#	bits	deg C
	23001	460.04	5.05169E-002	-2.42183E-001	0.00000E+000	5.00000E-002	-6.33565E-004	12	..........a	-327.63